STUDYID,DOMAIN,USUBJID,SUBJID,RFSTDTC,RFENDTC,SITEID,BRTHDTC,AGE,AGEU,SEX,RACE,ETHNIC,ARMCD,ARM
STUDY001,DM,STUDY001-001,001,2024-01-15,2024-01-16,SITE01,1980-05-10,43,YEARS,M,WHITE,NOT HISPANIC OR LATINO,TRT,Treatment
STUDY001,DM,STUDY001-002,002,2024-01-15,2024-01-16,SITE01,1975-08-22,48,YEARS,F,WHITE,NOT HISPANIC OR LATINO,TRT,Treatment
