STUDYID,DOMAIN,USUBJID,EXSEQ,EXTRT,EXDOSE,EXDOSU,EXDOSFRM,EXROUTE,EXSTDTC,EXENDTC
STUDY001,EX,STUDY001-001,1,DRUG,100,mg,TABLET,ORAL,2024-01-15T08:00:00,2024-01-15T08:00:00
STUDY001,EX,STUDY001-002,1,DRUG,100,mg,TABLET,ORAL,2024-01-15T08:00:00,2024-01-15T08:00:00
